Temps (s)	Extensiometre (mm)	No image	Deplacement DDS (mm)	Force DDS (N)
33,092	10,721	1,000	0,001	1,198
34,093	10,720	2,000	0,001	1,289
35,092	10,720	3,000	0,000	1,163
36,093	10,720	4,000	0,001	1,186
37,093	10,720	5,000	0,001	1,163
38,092	10,723	6,000	0,004	6,013
39,093	10,737	7,000	0,024	25,734
40,092	10,747	8,000	0,043	46,332
41,092	10,755	9,000	0,065	65,724
42,093	10,766	10,000	0,090	84,713
43,093	10,776	11,000	0,110	103,747
44,092	10,785	12,000	0,130	120,108
45,093	10,791	13,000	0,151	135,645
46,092	10,796	14,000	0,173	152,224
47,092	10,804	15,000	0,197	167,177
48,092	10,811	16,000	0,218	181,436
49,092	10,816	17,000	0,238	193,294
50,092	10,820	18,000	0,259	204,828
51,092	10,823	19,000	0,283	215,096
52,092	10,827	20,000	0,305	225,256
53,092	10,834	21,000	0,327	240,492
54,091	10,839	22,000	0,347	251,796
55,092	10,844	23,000	0,369	264,958
56,092	10,850	24,000	0,393	276,146
57,091	10,856	25,000	0,415	288,494
58,092	10,862	26,000	0,436	299,878
59,092	10,866	27,000	0,455	310,258
60,091	10,872	28,000	0,478	323,029
61,092	10,878	29,000	0,503	337,476
62,092	10,883	30,000	0,525	348,541
63,091	10,886	31,000	0,547	352,587
64,092	10,890	32,000	0,566	365,288
65,092	10,895	33,000	0,590	377,705
66,091	10,902	34,000	0,615	392,332
67,092	10,908	35,000	0,637	403,713
68,091	10,914	36,000	0,657	416,564
69,091	10,919	37,000	0,679	428,452
70,092	10,925	38,000	0,703	440,923
71,091	10,932	39,000	0,729	452,050
72,091	10,938	40,000	0,752	462,788
73,092	10,944	41,000	0,771	472,257
74,091	10,949	42,000	0,793	481,369
75,091	10,956	43,000	0,819	491,127
76,092	10,963	44,000	0,843	500,637
77,091	10,969	45,000	0,864	508,223
78,091	10,975	46,000	0,886	515,774
79,092	10,980	47,000	0,909	520,459
80,091	10,987	48,000	0,935	526,963
81,091	10,993	49,000	0,959	530,197
82,090	10,997	50,000	0,981	534,656
83,091	11,002	51,000	1,003	534,701
84,091	11,007	52,000	1,029	535,517
85,090	11,012	53,000	1,054	533,282
86,091	11,017	54,000	1,079	532,051
87,091	11,021	55,000	1,101	525,018
88,090	11,024	56,000	1,124	516,961
89,091	11,026	57,000	1,153	506,370
90,091	11,026	58,000	1,179	493,598
91,090	11,025	59,000	1,202	481,374
92,091	11,025	60,000	1,227	470,399
93,090	11,024	61,000	1,251	459,803
94,090	11,024	62,000	1,280	450,891
95,091	11,023	63,000	1,307	443,310
96,090	11,020	64,000	1,332	437,084
97,090	11,016	65,000	1,356	429,956
98,091	11,011	66,000	1,382	425,055
99,090	11,007	67,000	1,412	420,506
100,090	11,002	68,000	1,439	416,529
101,091	10,994	69,000	1,464	411,953
102,090	10,985	70,000	1,490	408,737
103,090	10,976	71,000	1,518	405,553
104,090	10,968	72,000	1,550	403,158
105,090	10,960	73,000	1,579	399,113
106,090	10,952	74,000	1,605	395,701
107,090	10,946	75,000	1,633	393,022
108,090	10,941	76,000	1,666	390,998
109,090	10,938	77,000	1,697	389,184
110,090	10,935	78,000	1,728	386,264
111,090	10,932	79,000	1,756	382,218
112,090	10,932	80,000	1,789	380,806
113,090	10,933	81,000	1,824	378,387
114,090	10,935	82,000	1,859	376,189
115,090	10,937	83,000	1,892	373,024
116,090	10,939	84,000	1,925	370,131
117,090	10,942	85,000	1,962	368,750
118,089	10,945	86,000	2,003	367,008
119,089	10,947	87,000	2,037	366,346
120,090	10,948	88,000	2,067	362,467
121,089	10,951	89,000	2,097	359,335
122,089	10,959	90,000	2,130	357,680
123,090	10,971	91,000	2,167	355,335
124,089	10,988	92,000	2,198	354,000
125,089	11,008	93,000	2,227	350,279
126,090	11,032	94,000	2,256	348,342
127,089	11,056	95,000	2,291	347,149
128,089	11,077	96,000	2,323	345,230
129,090	11,096	97,000	2,353	342,850
130,089	11,109	98,000	2,381	339,717
131,089	11,118	99,000	2,410	337,463
132,089	11,123	100,000	2,441	337,300
133,089	11,126	101,000	2,472	336,425
134,089	11,126	102,000	2,500	333,130
135,089	11,126	103,000	2,525	332,597
136,089	11,127	104,000	2,554	331,138
137,089	11,128	105,000	2,582	330,697
138,089	11,128	106,000	2,608	328,787
139,089	11,128	107,000	2,632	327,963
140,089	11,127	108,000	2,656	326,786
141,089	11,127	109,000	2,681	325,773
142,089	11,128	110,000	2,707	325,333
143,088	11,129	111,000	2,730	325,148
144,089	11,130	112,000	2,750	322,909
145,089	11,132	113,000	2,771	322,064
146,088	11,135	114,000	2,793	322,223
147,089	11,138	115,000	2,816	322,624
148,089	11,142	116,000	2,835	322,101
149,088	11,146	117,000	2,854	320,374
150,089	11,150	118,000	2,874	318,528
151,088	11,155	119,000	2,893	318,685
152,088	11,161	120,000	2,912	317,498
153,089	11,166	121,000	2,929	315,617
154,088	11,173	122,000	2,945	315,277
155,088	11,181	123,000	2,961	314,136
156,088	11,189	124,000	2,977	313,750
157,088	11,198	125,000	2,993	314,994
158,088	11,207	126,000	3,006	312,806
159,088	11,214	127,000	3,016	310,926
