Temps (s)	Extensiometre (mm)	No image	Deplacement DDS (mm)	Force DDS (N)
24,036	11,473	1,000	0,001	-0,820
25,036	11,473	2,000	0,001	-0,711
26,036	11,473	3,000	0,001	-0,169
27,036	11,473	4,000	0,001	-0,622
28,036	11,473	5,000	0,001	-0,768
29,036	11,474	6,000	0,001	-0,210
30,036	11,474	7,000	0,001	-0,650
31,035	11,534	8,000	0,015	2,303
32,036	11,433	9,000	0,034	1,954
33,036	11,116	10,000	0,059	2,726
34,035	10,781	11,000	0,081	3,007
35,036	10,501	12,000	0,103	4,302
36,036	10,256	13,000	0,120	5,188
37,035	10,047	14,000	0,141	5,300
38,036	9,857	15,000	0,165	5,975
39,036	9,679	16,000	0,188	7,521
40,035	9,520	17,000	0,208	8,040
41,036	9,373	18,000	0,227	8,081
42,035	9,242	19,000	0,249	8,816
43,035	9,116	20,000	0,271	9,849
44,035	8,999	21,000	0,293	10,508
45,035	8,894	22,000	0,312	11,646
46,035	8,801	23,000	0,332	12,165
47,035	8,718	24,000	0,354	12,964
48,035	8,640	25,000	0,377	13,592
49,035	8,570	26,000	0,399	14,489
50,035	8,510	27,000	0,418	13,384
51,035	8,459	28,000	0,439	14,857
52,035	8,412	29,000	0,461	15,499
53,034	8,371	30,000	0,484	16,244
54,035	8,335	31,000	0,505	16,492
55,035	8,304	32,000	0,525	18,014
56,034	8,282	33,000	0,544	17,588
57,035	8,265	34,000	0,569	18,062
58,035	8,250	35,000	0,591	18,679
59,034	8,240	36,000	0,610	18,834
60,035	8,232	37,000	0,630	19,414
61,035	8,228	38,000	0,652	19,000
62,034	8,227	39,000	0,674	20,086
63,035	8,228	40,000	0,696	18,974
64,035	8,233	41,000	0,715	19,384
65,034	8,238	42,000	0,735	21,079
66,035	8,245	43,000	0,757	20,528
67,034	8,254	44,000	0,781	20,611
68,034	8,265	45,000	0,800	20,341
69,035	8,277	46,000	0,821	20,345
70,034	8,288	47,000	0,840	21,021
71,034	8,302	48,000	0,864	20,709
72,034	8,317	49,000	0,887	21,307
73,034	8,333	50,000	0,907	20,860
74,034	8,349	51,000	0,927	20,712
75,034	8,365	52,000	0,947	21,341
76,034	8,383	53,000	0,971	22,280
77,034	8,401	54,000	0,993	21,758
78,034	8,420	55,000	1,013	20,989
79,034	8,438	56,000	1,032	21,364
80,034	8,456	57,000	1,052	21,860
81,033	8,476	58,000	1,076	21,983
82,034	8,497	59,000	1,098	21,666
83,034	8,517	60,000	1,116	20,819
84,033	8,536	61,000	1,136	21,054
85,034	8,556	62,000	1,159	22,560
86,034	8,576	63,000	1,181	21,837
87,033	8,597	64,000	1,203	21,625
88,034	8,617	65,000	1,220	21,500
89,034	8,637	66,000	1,242	22,284
90,033	8,657	67,000	1,264	21,829
91,034	8,678	68,000	1,285	22,121
92,033	8,700	69,000	1,307	23,190
93,033	8,720	70,000	1,326	22,653
94,034	8,742	71,000	1,347	22,340
95,033	8,763	72,000	1,370	22,893
96,033	8,785	73,000	1,392	21,787
97,034	8,807	74,000	1,412	22,076
98,033	8,827	75,000	1,431	21,447
99,033	8,848	76,000	1,452	22,781
100,033	8,870	77,000	1,476	21,485
101,033	8,891	78,000	1,498	21,961
102,033	8,912	79,000	1,517	22,486
103,032	8,934	80,000	1,536	21,905
104,033	8,955	81,000	1,559	21,912
105,033	8,977	82,000	1,581	22,145
106,032	8,998	83,000	1,602	22,563
107,033	9,019	84,000	1,620	23,037
108,033	9,039	85,000	1,641	22,439
109,032	9,060	86,000	1,664	22,830
110,033	9,081	87,000	1,686	21,914
111,033	9,102	88,000	1,706	21,939
112,032	9,122	89,000	1,725	22,131
113,033	9,141	90,000	1,746	21,456
114,033	9,162	91,000	1,769	22,393
115,032	9,184	92,000	1,790	22,716
116,033	9,205	93,000	1,811	21,526
117,032	9,225	94,000	1,829	22,684
118,032	9,247	95,000	1,850	22,573
119,033	9,268	96,000	1,874	22,333
120,032	9,289	97,000	1,894	21,977
121,032	9,309	98,000	1,915	21,262
122,033	9,329	99,000	1,933	20,908
123,032	9,350	100,000	1,955	21,405
124,032	9,371	101,000	1,978	20,991
125,033	9,392	102,000	1,998	21,717
126,032	9,412	103,000	2,017	21,928
127,032	9,433	104,000	2,036	22,196
128,032	9,456	105,000	2,059	21,197
129,032	9,478	106,000	2,082	21,528
130,032	9,502	107,000	2,101	20,996
131,032	9,525	108,000	2,120	21,276
132,032	9,548	109,000	2,140	20,991
133,032	9,572	110,000	2,164	21,834
134,032	9,597	111,000	2,184	21,160
135,032	9,628	112,000	2,205	21,416
136,032	9,665	113,000	2,223	21,135
137,031	9,711	114,000	2,245	20,621
138,032	9,867	115,000	2,267	20,026
139,031	9,916	116,000	2,289	20,164
140,031	9,948	117,000	2,308	18,410
141,032	9,992	118,000	2,328	17,680
142,031	10,022	119,000	2,349	15,821
143,031	10,032	120,000	2,371	13,393
144,032	10,055	121,000	2,393	12,869
145,031	10,099	122,000	2,411	10,530
146,031	10,134	123,000	2,430	9,558
147,032	10,139	124,000	2,453	6,326
148,031	10,148	125,000	2,475	5,017
149,032	10,190	126,000	2,496	4,511
150,031	10,225	127,000	2,515	5,089
151,031	10,255	128,000	2,535	5,329
152,031	10,278	129,000	2,557	4,472
